File: V44_Roentgenreflektometrie/V44_data/9_diffscan.UXD
; C:\DIFFDAT1\Praktikum\Popp-Weitkemper\9_diffscan.raw(Diffrac Plus V1.01 file) converted by XCH V1.0
_FILEVERSION=2
_SITE='Deutschland'
_USER='Administrator'
_GONIOMETER_CODE=4885
; D8 Theta/Theta; Special
_SAMPLE_CHANGER_CODE=0
_ATTACHMENTS_CODE=0
_GONIOMETER_RADIUS=350
_FIXED_DIVSLIT=0.600000
_FIXED_SAMPLESLIT=0.000000
_FIXED_DETSLIT=11.66
_MONOCHROMATOR=0
; None
_THIN_FILM='N'
_BETA_FILTER='Y'
_FIXED_ANTISLIT=8.340000
_ANALYZER_CODE=0
; None
_DATEMEASURED='31-Oct-2022 11:23:10'
_WL_UNIT='A'
_WL1=1.540600
_WL2=1.544390
_WL3=1.392220
_WLRATIO=0.500000
_ANODE='Cu'
; (Data for Range number 1)
_DRIVE='THETA'
_STEPTIME=5.000660
_STEPSIZE=0.005000
_STEPMODE='C'
_START=0.000000
_THETA=0.000000
_2THETA=0.100000
_KHI=0.000000
_PHI=92.46
_X=-1.000000
_Y=-1.500000
_Z=0.227000
_DIVERGENCE=0.000000
_ANTISCATTER=0.000000
_DETECTOR=5
_DETECTORSLIT='unkn'
_AUX1=0.000000
_AUX2=0.000000
_AUX3=0.000000
_TIMESTARTED=2.000000
_TEMP_RATE=-1.000000
_TEMP_DELAY=-1.000000
_KV=40
_MA=35
_RANGE_WL=1.540600
_3DPLANE=0
_GONIOMETER=0.097500
_PSDCHANNEL0=0
_2THETACOUNTS
   0.0000    650882
   0.0050    527616
   0.0100    419876
   0.0150    341468
   0.0200    283176
   0.0250    220412
   0.0300    186298
   0.0350    162333
   0.0400    141297
   0.0450    130866
   0.0500    118312
   0.0550    107059
   0.0600     99690
   0.0650     93216
   0.0700     89268
   0.0750     87773
   0.0800     85552
   0.0850     84465
   0.0900     83125
   0.0950     80420
   0.1000     76091
   0.1050     72063
   0.1100     67571
   0.1150     61969
   0.1200     55831
   0.1250     49534
   0.1300     45344
   0.1350     41311
   0.1400     37677
   0.1450     33602
   0.1500     29820
   0.1550     26597
   0.1600     24102
   0.1650     22036
   0.1700     20526
   0.1750     19433
   0.1800     17949
   0.1850     16635
   0.1900     15551
   0.1950     14597
   0.2000     13286
   0.2050     11957
   0.2100     10438
   0.2150      9030
   0.2200      7424
   0.2250      5898
   0.2300      4603
   0.2350      3732
   0.2400      2937
   0.2450      2410
   0.2500      1973
   0.2550      1686
   0.2600      1511
   0.2650      1273
   0.2700      1168
   0.2750      1046
   0.2800       894
   0.2850       773
   0.2900       708
   0.2950       658
   0.3000       622
   0.3050       528
   0.3100       434
   0.3150       409
   0.3200       379
   0.3250       381
   0.3300       309
   0.3350       312
   0.3400       347
   0.3450       284
   0.3500       268
   0.3550       296
   0.3600       218
   0.3650       215
   0.3700       204
   0.3750       195
   0.3800       171
   0.3850       162
   0.3900       192
   0.3950       174
   0.4000       159
   0.4050       164
   0.4100       142
   0.4150       137
   0.4200       135
   0.4250       145
   0.4300       137
   0.4350       128
   0.4400       110
   0.4450       102
   0.4500       110
   0.4550       100
   0.4600        98
   0.4650       122
   0.4700        98
   0.4750        96
   0.4800        90
   0.4850       105
   0.4900        97
   0.4950       101
   0.5000        82
   0.5050        87
   0.5100        78
   0.5150        85
   0.5200        75
   0.5250        96
   0.5300        79
   0.5350        80
   0.5400        58
   0.5450        69
   0.5500        66
   0.5550        63
   0.5600        60
   0.5650        73
   0.5700        72
   0.5750        67
   0.5800        64
   0.5850        68
   0.5900        68
   0.5950        49
   0.6000        68
   0.6050        62
   0.6100        71
   0.6150        49
   0.6200        66
   0.6250        47
   0.6300        55
   0.6350        47
   0.6400        45
   0.6450        42
   0.6500        56
   0.6550        48
   0.6600        47
   0.6650        45
   0.6700        50
   0.6750        33
   0.6800        33
   0.6850        44
   0.6900        37
   0.6950        50
   0.7000        27
   0.7050        40
   0.7100        37
   0.7150        45
   0.7200        27
   0.7250        35
   0.7300        40
   0.7350        29
   0.7400        23
   0.7450        21
   0.7500        26
   0.7550        24
   0.7600        39
   0.7650        36
   0.7700        35
   0.7750        25
   0.7800        21
   0.7850        24
   0.7900        27
   0.7950        26
   0.8000        14
   0.8050        18
   0.8100        19
   0.8150        24
   0.8200        23
   0.8250        36
   0.8300        21
   0.8350        24
   0.8400        11
   0.8450        31
   0.8500        23
   0.8550        13
   0.8600        14
   0.8650        18
   0.8700        28
   0.8750        14
   0.8800        24
   0.8850        23
   0.8900         7
   0.8950        10
   0.9000        17
   0.9050        18
   0.9100        10
   0.9150        11
   0.9200        16
   0.9250        19
   0.9300        21
   0.9350        12
   0.9400         8
   0.9450         6
   0.9500        14
   0.9550        14
   0.9600        15
   0.9650         7
   0.9700        18
   0.9750        18
   0.9800        14
   0.9850        13
   0.9900         6
   0.9950         7
   1.0000        13
   1.0050        10
   1.0100         8
   1.0150        10
   1.0200         9
   1.0250         8
   1.0300         5
   1.0350        10
   1.0400         9
   1.0450         6
   1.0500         4
   1.0550         4
   1.0600         7
   1.0650         3
   1.0700         8
   1.0750         5
   1.0800         8
   1.0850         8
   1.0900         5
   1.0950         6
   1.1000        11
   1.1050         6
   1.1100         5
   1.1150         6
   1.1200         3
   1.1250         6
   1.1300         4
   1.1350        10
   1.1400         7
   1.1450         2
   1.1500         6
   1.1550         3
   1.1600         4
   1.1650         5
   1.1700         2
   1.1750         2
   1.1800         6
   1.1850         8
   1.1900         7
   1.1950         3
   1.2000         1
   1.2050         3
   1.2100         3
   1.2150         3
   1.2200         2
   1.2250         5
   1.2300         3
   1.2350         6
   1.2400         2
   1.2450         5
   1.2500         5
   1.2550         0
   1.2600         4
   1.2650         5
   1.2700         4
   1.2750         3
   1.2800         5
   1.2850         3
   1.2900         4
   1.2950         1
   1.3000         4
   1.3050         4
   1.3100         1
   1.3150         0
   1.3200         2
   1.3250         3
   1.3300         2
   1.3350         1
   1.3400         0
   1.3450         2
   1.3500         1
   1.3550         2
   1.3600         3
   1.3650         1
   1.3700         2
   1.3750         2
   1.3800         3
   1.3850         2
   1.3900         2
   1.3950         1
   1.4000         2
   1.4050         3
   1.4100         0
   1.4150         2
   1.4200         0
   1.4250         1
   1.4300         0
   1.4350         2
   1.4400         1
   1.4450         1
   1.4500         1
   1.4550         3
   1.4600         2
   1.4650         1
   1.4700         2
   1.4750         1
   1.4800         2
   1.4850         1
   1.4900         1
   1.4950         0
   1.5000         1
   1.5050         0
   1.5100         2
   1.5150         2
   1.5200         2
   1.5250         0
   1.5300         2
   1.5350         2
   1.5400         0
   1.5450         0
   1.5500         0
   1.5550         1
   1.5600         1
   1.5650         0
   1.5700         0
   1.5750         2
   1.5800         0
   1.5850         1
   1.5900         0
   1.5950         1
   1.6000         4
   1.6050         1
   1.6100         1
   1.6150         0
   1.6200         1
   1.6250         2
   1.6300         0
   1.6350         0
   1.6400         0
   1.6450         0
   1.6500         0
   1.6550         2
   1.6600         0
   1.6650         1
   1.6700         0
   1.6750         2
   1.6800         0
   1.6850         1
   1.6900         0
   1.6950         1
   1.7000         0
   1.7050         1
   1.7100         0
   1.7150         1
   1.7200         2
   1.7250         3
   1.7300         0
   1.7350         0
   1.7400         1
   1.7450         1
   1.7500         0
   1.7550         1
   1.7600         1
   1.7650         0
   1.7700         2
   1.7750         1
   1.7800         0
   1.7850         0
   1.7900         0
   1.7950         0
   1.8000         0
   1.8050         0
   1.8100         1
   1.8150         0
   1.8200         0
   1.8250         2
   1.8300         1
   1.8350         0
   1.8400         2
   1.8450         0
   1.8500         1
   1.8550         0
   1.8600         0
   1.8650         0
   1.8700         1
   1.8750         1
   1.8800         0
   1.8850         0
   1.8900         0
   1.8950         1
   1.9000         0
   1.9050         0
   1.9100         1
   1.9150         0
   1.9200         0
   1.9250         0
   1.9300         0
   1.9350         0
   1.9400         1
   1.9450         0
   1.9500         1
   1.9550         1
   1.9600         1
   1.9650         0
   1.9700         0
   1.9750         0
   1.9800         0
   1.9850         0
   1.9900         2
   1.9950         0
   2.0000         0
   2.0050         1
   2.0100         0
   2.0150         0
   2.0200         1
   2.0250         0
   2.0300         0
   2.0350         1
   2.0400         0
   2.0450         1
   2.0500         2
   2.0550         0
   2.0600         0
   2.0650         1
   2.0700         0
   2.0750         0
   2.0800         0
   2.0850         0
   2.0900         2
   2.0950         0
   2.1000         0
   2.1050         0
   2.1100         0
   2.1150         0
   2.1200         0
   2.1250         1
   2.1300         0
   2.1350         1
   2.1400         0
   2.1450         0
   2.1500         0
   2.1550         0
   2.1600         0
   2.1650         0
   2.1700         2
   2.1750         0
   2.1800         0
   2.1850         0
   2.1900         2
   2.1950         0
   2.2000         0
   2.2050         0
   2.2100         0
   2.2150         0
   2.2200         3
   2.2250         0
   2.2300         0
   2.2350         0
   2.2400         0
   2.2450         0
   2.2500         0
   2.2550         0
   2.2600         1
   2.2650         1
   2.2700         0
   2.2750         0
   2.2800         0
   2.2850         0
   2.2900         0
   2.2950         0
   2.3000         0
   2.3050         0
   2.3100         0
   2.3150         0
   2.3200         1
   2.3250         0
   2.3300         0
   2.3350         0
   2.3400         0
   2.3450         0
   2.3500         0
   2.3550         0
   2.3600         0
   2.3650         0
   2.3700         0
   2.3750         1
   2.3800         1
   2.3850         0
   2.3900         0
   2.3950         0
   2.4000         0
   2.4050         0
   2.4100         0
   2.4150         0
   2.4200         0
   2.4250         1
   2.4300         0
   2.4350         0
   2.4400         0
   2.4450         1
   2.4500         0
   2.4550         0
   2.4600         2
   2.4650         0
   2.4700         0
   2.4750         0
   2.4800         0
   2.4850         0
   2.4900         1
   2.4950         0
   2.5000         2