File: V44_Roentgenreflektometrie/data/8_reflektivitaet.UXD
; C:\DIFFDAT1\Praktikum\Popp-Weitkemper\8_reflektivitaetsscan.raw(Diffrac Plus V1.01 file) converted by XCH V1.0
_FILEVERSION=2
_SITE='Deutschland'
_USER='Administrator'
_GONIOMETER_CODE=4885
; D8 Theta/Theta; Special
_SAMPLE_CHANGER_CODE=0
_ATTACHMENTS_CODE=0
_GONIOMETER_RADIUS=350
_FIXED_DIVSLIT=0.600000
_FIXED_SAMPLESLIT=0.000000
_FIXED_DETSLIT=11.66
_MONOCHROMATOR=0
; None
_THIN_FILM='N'
_BETA_FILTER='Y'
_FIXED_ANTISLIT=8.340000
_ANALYZER_CODE=0
; None
_DATEMEASURED='31-Oct-2022 10:35:14'
_WL_UNIT='A'
_WL1=1.540600
_WL2=1.544390
_WL3=1.392220
_WLRATIO=0.500000
_ANODE='Cu'
; (Data for Range number 1)
_DRIVE='THETA'
_STEPTIME=5.000660
_STEPSIZE=0.005000
_STEPMODE='C'
_START=0.000000
_THETA=0.000000
_2THETA=0.000000
_KHI=0.000000
_PHI=92.46
_X=-1.000000
_Y=-1.500000
_Z=0.227000
_DIVERGENCE=0.000000
_ANTISCATTER=0.000000
_DETECTOR=5
_DETECTORSLIT='unkn'
_AUX1=0.000000
_AUX2=0.000000
_AUX3=0.000000
_TIMESTARTED=2.000000
_TEMP_RATE=-1.000000
_TEMP_DELAY=-1.000000
_KV=40
_MA=35
_RANGE_WL=1.540600
_3DPLANE=0
_GONIOMETER=-0.002500
_PSDCHANNEL0=0
_2THETACOUNTS
   0.0000   1698580
   0.0050   2045380
   0.0100   2360680
   0.0150   2603600
   0.0200   2726100
   0.0250   2619260
   0.0300   2271070
   0.0350   1876520
   0.0400   1579690
   0.0450   1335650
   0.0500   1176410
   0.0550   1086700
   0.0600   1045040
   0.0650   1020740
   0.0700   1021680
   0.0750   1017760
   0.0800   1038450
   0.0850   1071980
   0.0900   1108400
   0.0950   1144830
   0.1000   1183080
   0.1050   1231610
   0.1100   1282580
   0.1150   1325520
   0.1200   1366000
   0.1250   1415390
   0.1300   1470200
   0.1350   1514090
   0.1400   1565880
   0.1450   1601480
   0.1500   1624410
   0.1550   1652280
   0.1600   1669700
   0.1650   1685140
   0.1700   1684260
   0.1750   1725180
   0.1800   1753990
   0.1850   1794020
   0.1900   1819430
   0.1950   1851860
   0.2000   1876940
   0.2050   1867140
   0.2100   1823760
   0.2150   1725410
   0.2200   1590970
   0.2250   1413740
   0.2300   1176760
   0.2350    934412
   0.2400    729586
   0.2450    561619
   0.2500    415355
   0.2550    320036
   0.2600    262087
   0.2650    225862
   0.2700    198154
   0.2750    171262
   0.2800    142141
   0.2850    117415
   0.2900     96309
   0.2950     83585
   0.3000     76754
   0.3050     74056
   0.3100     71754
   0.3150     67988
   0.3200     62170
   0.3250     53867
   0.3300     45398
   0.3350     38948
   0.3400     34690
   0.3450     32718
   0.3500     33012
   0.3550     32263
   0.3600     32056
   0.3650     30133
   0.3700     27388
   0.3750     23946
   0.3800     20341
   0.3850     18019
   0.3900     16803
   0.3950     16294
   0.4000     16579
   0.4050     16770
   0.4100     16386
   0.4150     15508
   0.4200     14070
   0.4250     12372
   0.4300     10656
   0.4350      9672
   0.4400      9209
   0.4450      9049
   0.4500      9086
   0.4550      9350
   0.4600      9094
   0.4650      8859
   0.4700      8243
   0.4750      7122
   0.4800      6421
   0.4850      5755
   0.4900      5508
   0.4950      5554
   0.5000      5554
   0.5050      5490
   0.5100      5503
   0.5150      5306
   0.5200      4876
   0.5250      4426
   0.5300      4065
   0.5350      3607
   0.5400      3358
   0.5450      3221
   0.5500      3358
   0.5550      3361
   0.5600      3263
   0.5650      3196
   0.5700      3040
   0.5750      2677
   0.5800      2548
   0.5850      2417
   0.5900      2134
   0.5950      2209
   0.6000      2154
   0.6050      2102
   0.6100      2136
   0.6150      2056
   0.6200      2048
   0.6250      1893
   0.6300      1722
   0.6350      1630
   0.6400      1434
   0.6450      1437
   0.6500      1393
   0.6550      1432
   0.6600      1401
   0.6650      1365
   0.6700      1257
   0.6750      1343
   0.6800      1254
   0.6850      1140
   0.6900      1024
   0.6950      1002
   0.7000       937
   0.7050       938
   0.7100       961
   0.7150       945
   0.7200       964
   0.7250       901
   0.7300       855
   0.7350       770
   0.7400       731
   0.7450       688
   0.7500       664
   0.7550       690
   0.7600       666
   0.7650       643
   0.7700       628
   0.7750       665
   0.7800       622
   0.7850       573
   0.7900       537
   0.7950       462
   0.8000       492
   0.8050       441
   0.8100       430
   0.8150       447
   0.8200       461
   0.8250       450
   0.8300       399
   0.8350       418
   0.8400       364
   0.8450       377
   0.8500       374
   0.8550       326
   0.8600       358
   0.8650       336
   0.8700       322
   0.8750       339
   0.8800       367
   0.8850       285
   0.8900       288
   0.8950       270
   0.9000       267
   0.9050       242
   0.9100       265
   0.9150       222
   0.9200       246
   0.9250       217
   0.9300       224
   0.9350       205
   0.9400       214
   0.9450       212
   0.9500       180
   0.9550       158
   0.9600       177
   0.9650       165
   0.9700       161
   0.9750       165
   0.9800       200
   0.9850       170
   0.9900       162
   0.9950       154
   1.0000       133
   1.0050       137
   1.0100       122
   1.0150       126
   1.0200       116
   1.0250       126
   1.0300       124
   1.0350       115
   1.0400        99
   1.0450       108
   1.0500        95
   1.0550        86
   1.0600        86
   1.0650        99
   1.0700        91
   1.0750        79
   1.0800        90
   1.0850        98
   1.0900        82
   1.0950        67
   1.1000        69
   1.1050        93
   1.1100        80
   1.1150        60
   1.1200        73
   1.1250        63
   1.1300        71
   1.1350        71
   1.1400        66
   1.1450        50
   1.1500        65
   1.1550        66
   1.1600        53
   1.1650        59
   1.1700        52
   1.1750        58
   1.1800        46
   1.1850        53
   1.1900        52
   1.1950        50
   1.2000        46
   1.2050        37
   1.2100        41
   1.2150        37
   1.2200        38
   1.2250        48
   1.2300        28
   1.2350        42
   1.2400        28
   1.2450        39
   1.2500        37
   1.2550        44
   1.2600        33
   1.2650        32
   1.2700        29
   1.2750        29
   1.2800        35
   1.2850        22
   1.2900        30
   1.2950        25
   1.3000        25
   1.3050        35
   1.3100        18
   1.3150        24
   1.3200        26
   1.3250        14
   1.3300        20
   1.3350        20
   1.3400        26
   1.3450        20
   1.3500        23
   1.3550        22
   1.3600        23
   1.3650        17
   1.3700        22
   1.3750        15
   1.3800        25
   1.3850        20
   1.3900        21
   1.3950        16
   1.4000        18
   1.4050        22
   1.4100        10
   1.4150        12
   1.4200        12
   1.4250        13
   1.4300        18
   1.4350        11
   1.4400        15
   1.4450        15
   1.4500        15
   1.4550        11
   1.4600        16
   1.4650        11
   1.4700        11
   1.4750        11
   1.4800         6
   1.4850         8
   1.4900         8
   1.4950        10
   1.5000         9
   1.5050         3
   1.5100        14
   1.5150         5
   1.5200         5
   1.5250         7
   1.5300         5
   1.5350         8
   1.5400         7
   1.5450         6
   1.5500         6
   1.5550         6
   1.5600         4
   1.5650        14
   1.5700         6
   1.5750         6
   1.5800         9
   1.5850         2
   1.5900         5
   1.5950         3
   1.6000         8
   1.6050         4
   1.6100         5
   1.6150         8
   1.6200         6
   1.6250         3
   1.6300         7
   1.6350         1
   1.6400         6
   1.6450         4
   1.6500         4
   1.6550         6
   1.6600         2
   1.6650         3
   1.6700         3
   1.6750         7
   1.6800         5
   1.6850         3
   1.6900         3
   1.6950         4
   1.7000         9
   1.7050         2
   1.7100         1
   1.7150         4
   1.7200         4
   1.7250         4
   1.7300         4
   1.7350         4
   1.7400         2
   1.7450         5
   1.7500         1
   1.7550         1
   1.7600         0
   1.7650         5
   1.7700         7
   1.7750         7
   1.7800         5
   1.7850         3
   1.7900         2
   1.7950         3
   1.8000         3
   1.8050         2
   1.8100         3
   1.8150         3
   1.8200         1
   1.8250         1
   1.8300         3
   1.8350         3
   1.8400         3
   1.8450         3
   1.8500         3
   1.8550         2
   1.8600         1
   1.8650         1
   1.8700         5
   1.8750         2
   1.8800         3
   1.8850         0
   1.8900         1
   1.8950         3
   1.9000         2
   1.9050         2
   1.9100         3
   1.9150         3
   1.9200         1
   1.9250         0
   1.9300         0
   1.9350         0
   1.9400         6
   1.9450         0
   1.9500         2
   1.9550         1
   1.9600         2
   1.9650         2
   1.9700         1
   1.9750         2
   1.9800         3
   1.9850         2
   1.9900         0
   1.9950         1
   2.0000         0
   2.0050         3
   2.0100         2
   2.0150         4
   2.0200         0
   2.0250         2
   2.0300         0
   2.0350         2
   2.0400         1
   2.0450         2
   2.0500         1
   2.0550         1
   2.0600         3
   2.0650         1
   2.0700         1
   2.0750         1
   2.0800         0
   2.0850         1
   2.0900         0
   2.0950         1
   2.1000         2
   2.1050         1
   2.1100         0
   2.1150         0
   2.1200         2
   2.1250         0
   2.1300         1
   2.1350         0
   2.1400         1
   2.1450         2
   2.1500         2
   2.1550         1
   2.1600         0
   2.1650         0
   2.1700         0
   2.1750         0
   2.1800         1
   2.1850         0
   2.1900         2
   2.1950         0
   2.2000         1
   2.2050         0
   2.2100         1
   2.2150         1
   2.2200         0
   2.2250         2
   2.2300         0
   2.2350         0
   2.2400         0
   2.2450         1
   2.2500         0
   2.2550         0
   2.2600         0
   2.2650         0
   2.2700         1
   2.2750         0
   2.2800         0
   2.2850         0
   2.2900         1
   2.2950         1
   2.3000         0
   2.3050         0
   2.3100         0
   2.3150         0
   2.3200         0
   2.3250         2
   2.3300         1
   2.3350         1
   2.3400         1
   2.3450         0
   2.3500         0
   2.3550         0
   2.3600         1
   2.3650         1
   2.3700         0
   2.3750         1
   2.3800         1
   2.3850         0
   2.3900         1
   2.3950         0
   2.4000         2
   2.4050         2
   2.4100         1
   2.4150         2
   2.4200         0
   2.4250         0
   2.4300         0
   2.4350         0
   2.4400         0
   2.4450         1
   2.4500         1
   2.4550         0
   2.4600         2
   2.4650         2
   2.4700         0
   2.4750         0
   2.4800         1
   2.4850         0
   2.4900         0
   2.4950         1
   2.5000         0